Folder: DiSCoMaT/code/baseline_comparison/tabbie/data/discomat_data/discomat_train_csv

Note: code/baseline_comparison/tabbie/README.md
# Tabbie: Tabular Information Embedding
This repository includes scripts for Tabbie(Tabular Information Embedding) model. 
The link to the paper is as follows.
https://arxiv.org/pdf/2105.02584.pdf
Run this on Quadro P5000.

## (Setup 1): update cuda version from 10.0 to 10.1 (for AWS deep learning ami)
```
# https://docs.aws.amazon.com/dlami/latest/devguide/tutorial-base.html
sudo rm /usr/local/cuda
sudo ln -s /usr/local/cuda-10.1 /usr/local/cuda
```

## Setup 2: create conda env (default env name: "table_emb_dev")
```
git clone https://github.com/SFIG611/tabbie.git
cd tabbie
conda env create --file env/env.yml
conda activate table_emb_dev
conda install pytorch==1.5.1 cudatoolkit=10.1 -c pytorch
```

## Setup 3: installing apex (gcc==6.5, cuda==10.1.168, cudnn==7.6-cuda_10.1)
```
conda activate table_emb_dev
mkdir -p third_party
git clone -q https://github.com/NVIDIA/apex.git third_party/apex
cd third_party/apex
git checkout f3a960f80244cf9e80558ab30f7f7e8cbf03c0a0
export TORCH_CUDA_ARCH_LIST="6.0;6.1;6.2;7.0;7.5"
pip install -v --no-cache-dir --global-option="--cpp_ext" --global-option="--cuda_ext" --global-option="--deprecated_fused_adam" ./
```
## Setup 4: downloading MATSCIBERT
```
cd tabbie
Download files from https://huggingface.co/m3rg-iitd/matscibert/tree/main and place it in folder named saved_matscibert
```

# Create data required for training and inference in TABBIE
```
python create_data_for_tabbie.py
mkdir ./data/ft_cell/discomat_data/discomat_all_csv
cd data/ft_cell/discomat_data/discomat_all_csv
cp -a ./../discomat_train_csv/. ./../discomat_val_csv/. ./../discomat_test_csv/. .
cd ../../../../
```

# Make directories to save logits
```
mkdir row_col_gid_logit
mkdir edge_logit
```

# Seeds to replicate the result
```
Edit the seeds present in tabbie/exp/ft_cell/cell.jsonnet file:
1. For TABBIE_ADAPTED : [[seed used in TABBIE(comment out the seeds)], ["random_seed": 20050, "numpy_seed": 2005, "pytorch_seed": 200,], ["random_seed": 2, "numpy_seed": 2, "pytorch_seed": 2,]
2. For TABBIE_ADAPTED : [[seed used in TABBIE(comment out the seeds)], ["random_seed": 20050, "numpy_seed": 2005, "pytorch_seed": 200,], ["random_seed": 30000, "numpy_seed": 6000, "pytorch_seed": 1200,]]

Reason for using different 3rd seed: Obtained better ressults from baseline, wanted to be fair to the baselines by obtaining best possible results.
```

# For TABBIE
```
Edit the tabbie/exp/ft_cell/cell.jsonnet file:
1. Change the name of the model present in the dataset reader, tokenizer and bert_embedder of the model to "bert-base-uncased"
2. Comment out the requires_grad=true in bert_embedder, as done in TABBIE.
3. Comment line 385-387, paramter grouping of BERT Embedder for controlling its lr. Not required in TABBIE.
```

# For TABBIE_ADAPTED
```
Edit the tabbie/exp/ft_cell/cell.jsonnet file:
1. Change the name of the model present in the dataset reader, tokenizer to "allenai/scibert_scivocab_uncased", and bert_embedder of the model to './saved_matscibert'.
2. Mak

File: S002230930200950X__2.csv
Sample,Heat treatment temperature (degC)/time (h),r (g/cm3),m,G (GPa),E (GPa),Vickers hardness (GPa),K Ic (MPam1/2),Crystalline phases observed
G,-,2.632,0.26,40.9,103,6.7+-0.1,1.5+-0.3,-
GC1,800/3,2.645,0.26,41.6,105,6.9+-0.1,1.5+-0.1,QSS
GC2,800/2-1050/3,2.712,0.23,46.7,114,8.4+-0.2,2.1+-0.3,"HQSS, MAT, MAS"
GC3,800/2-1080/3,2.957,0.19,58.1,139,9.5+-0.2,4.3+-0.6,"MAT, MAS, LQSS"
GC4,800/2-1200/3,2.630,0.21,47.8,116,7.9+-0.5,2.0+-0.3,"AT, Cordierite, Cristobalite, Rutile"

File: S0022309303006392__1.csv
Glass type,Devitrification temperature (degC),Additional heat treatment,Vickers hardness (MPa),Standard deviation of hardness (MPa),Major phases,CTE (x106/degC)
S,950,As devitrified,5364,201,LS2,12.0
S,950,10 cycles to 800 degC,5763,143,LS2,
S,950,16 days at 700 degC,5708,92,LS2,
S,950,16 days at 800 degC,5950,96,LS2,
S,1000,As devitrified,4464,546,LS>CR,14.3
S,1000,10 cycles to 800 degC,4406,528,LS>CR,
S,1000,16 days at 700 degC,4158,312,LS>CR,
S,1000,16 days at 800 degC,4535,348,LS2>LS>CR>QZ,
BPS,950,As devitrified,5786,148,LS2,12.5
BPS,950,10 cycles to 700 degC,5757,206,LS2,10.6
BPS,950,10 cycles to 800 degC,5879,110,LS2,11.0
BPS,950,4 days at 700 degC,5981,157,LS2,11.8
BPS,950,8 days at 700 degC,5767,95,LS2,11.1
BPS,950,12 days at 700 degC,5987,94,SiO2 >LS2>CR,11.3
BPS,950,16 days at 700 degC,5548,259,SiO2 >LS2>CR,11.4
BPS,950,4 days at 800 degC,5950,270,LS2,11.7
BPS,950,8 days at 800 degC,5946,148,LS2,11.8
BPS,950,12 days at 800 degC,5816,214,LS2,12.0
BPS,950,16 days at 800 degC,5984,229,LS2,12.0
BPS,1000,As devitrified,4369,312,LS>CR,18.3
BPS,1000,10 cycles to 700 degC,4088,202,LS>CR,16.6
BPS,1000,10 cycles to 800 degC,4637,297,LS>CR,
BPS,1000,4 days at 700 degC,4789,500,LS>CR,17.7
BPS,1000,8 days at 700 degC,4871,307,LS>CR,16.9
BPS,1000,12 days at 700 degC,4122,288,SiO2 >LS>CR,17.6
BPS,1000,16 days at 700 degC,5119,964,SiO2 >LS>CR,15.0
BPS,1000,4 days at 800 degC,3386,361,LS>CR,16.8
BPS,1000,8 days at 800 degC,5104,920,QZ>LS>LS2,16.4
BPS,1000,12 days at 800 degC,4519,927,QZ>LS2>LS,12.2
BPS,1000,16 days at 800 degC,5574,280,QZ>LS2>LS,11.4

File: S0022309304007616__0.csv
Composition (mol%),Composition (mol%),Melting conditions,Melting conditions,Density (g/cc),Young's Modulus (GPa),e f(%) at 4000mm/s,e f(%) at 50mm/s,s f
Na2O,SiO2,Temperature (degC),Time (h),,,,,
0,100,-,-,2.2153+-0.0012,71.99+-0.65,17.73+-0.16,17.57+-0.18,12.77
7,93,1600,20.00,2.2576+-0.0008,63.97+-0.27,15.67+-0.09,15.46+-0.07,10.02
10,90,1550,14.00,2.2847+-0.0008,62.11+-0.28,16.04+-0.05,16.01+-0.05,9.96
15,85,1550,7.00,2.3352+-0.0004,59.06+-0.27,17.60+-0.06,17.91+-0.09,10.39
20,80,1500,6.00,2.3830+-0.0014,57.49+-0.44,19.19+-0.09,19.86+-0.10,11.03
25,75,1300,6.30,2.4299+-0.0007,56.18+-0.33,20.85+-0.12,21.99+-0.10,11.71
30,70,1300,6.30,2.4693+-0.0019,55.94+-0.29,22.48+-0.13,24.19+-0.13,12.57
35,65,1200,8.00,2.4964+-0.0018,55.71+-0.23,23.49+-0.14,25.76+-0.17,13.08

File: S0022309308002652__0.csv
Sample code,Weight percentage (wt%),Weight percentage (wt%),Weight percentage (wt%),Weight percentage (wt%),Density (kgm-3),"Glass melting temperature, T m (degC)","Glass transition temperature, T g (degC)","Crystallization temperature, T C (degC)",Micro hardness,Micro hardness
,P2O5,CaO,Na2O,K2O,,,,,Mean HV,Standard deviation
PCN,47,30.5,22.5,0,2635,739,~210,~529,309,14.61
PCNK15,47,30.5,21.0,1.5,2715,727,~240,~580,257.6,10.71
PCNK30,47,30.5,19.5,3.0,2657,714,~270,~560,324.2,14.43
PCNK45,47,30.5,18.0,4.5,2691,711,~200,~580,310.8,28.31
PCNK60,47,30.5,16.5,6.0,2626,711,~250,~590,335.8,5.40