Folder: DiSCoMaT/code/baseline_comparison/tabbie/data/discomat_data/discomat_all_csv

Note: code/baseline_comparison/tabbie/README.md
# Tabbie: Tabular Information Embedding
This repository includes scripts for Tabbie(Tabular Information Embedding) model. 
The link to the paper is as follows.
https://arxiv.org/pdf/2105.02584.pdf
Run this on Quadro P5000.

## (Setup 1): update cuda version from 10.0 to 10.1 (for AWS deep learning ami)
```
# https://docs.aws.amazon.com/dlami/latest/devguide/tutorial-base.html
sudo rm /usr/local/cuda
sudo ln -s /usr/local/cuda-10.1 /usr/local/cuda
```

## Setup 2: create conda env (default env name: "table_emb_dev")
```
git clone https://github.com/SFIG611/tabbie.git
cd tabbie
conda env create --file env/env.yml
conda activate table_emb_dev
conda install pytorch==1.5.1 cudatoolkit=10.1 -c pytorch
```

## Setup 3: installing apex (gcc==6.5, cuda==10.1.168, cudnn==7.6-cuda_10.1)
```
conda activate table_emb_dev
mkdir -p third_party
git clone -q https://github.com/NVIDIA/apex.git third_party/apex
cd third_party/apex
git checkout f3a960f80244cf9e80558ab30f7f7e8cbf03c0a0
export TORCH_CUDA_ARCH_LIST="6.0;6.1;6.2;7.0;7.5"
pip install -v --no-cache-dir --global-option="--cpp_ext" --global-option="--cuda_ext" --global-option="--deprecated_fused_adam" ./
```
## Setup 4: downloading MATSCIBERT
```
cd tabbie
Download files from https://huggingface.co/m3rg-iitd/matscibert/tree/main and place it in folder named saved_matscibert
```

# Create data required for training and inference in TABBIE
```
python create_data_for_tabbie.py
mkdir ./data/ft_cell/discomat_data/discomat_all_csv
cd data/ft_cell/discomat_data/discomat_all_csv
cp -a ./../discomat_train_csv/. ./../discomat_val_csv/. ./../discomat_test_csv/. .
cd ../../../../
```

# Make directories to save logits
```
mkdir row_col_gid_logit
mkdir edge_logit
```

# Seeds to replicate the result
```
Edit the seeds present in tabbie/exp/ft_cell/cell.jsonnet file:
1. For TABBIE_ADAPTED : [[seed used in TABBIE(comment out the seeds)], ["random_seed": 20050, "numpy_seed": 2005, "pytorch_seed": 200,], ["random_seed": 2, "numpy_seed": 2, "pytorch_seed": 2,]
2. For TABBIE_ADAPTED : [[seed used in TABBIE(comment out the seeds)], ["random_seed": 20050, "numpy_seed": 2005, "pytorch_seed": 200,], ["random_seed": 30000, "numpy_seed": 6000, "pytorch_seed": 1200,]]

Reason for using different 3rd seed: Obtained better ressults from baseline, wanted to be fair to the baselines by obtaining best possible results.
```

# For TABBIE
```
Edit the tabbie/exp/ft_cell/cell.jsonnet file:
1. Change the name of the model present in the dataset reader, tokenizer and bert_embedder of the model to "bert-base-uncased"
2. Comment out the requires_grad=true in bert_embedder, as done in TABBIE.
3. Comment line 385-387, paramter grouping of BERT Embedder for controlling its lr. Not required in TABBIE.
```

# For TABBIE_ADAPTED
```
Edit the tabbie/exp/ft_cell/cell.jsonnet file:
1. Change the name of the model present in the dataset reader, tokenizer to "allenai/scibert_scivocab_uncased", and bert_embedder of the model to './saved_matscibert'.
2. Mak

File: S0022309301006159__0.csv
Sample,Batch composition (mol%),Batch composition (mol%),Batch composition (mol%),Batch composition (mol%),Batch composition (mol%),Glass density (g/cm3),"Glass transition temperature, T g (degC)","Glass softening temperature, T s (degC)","Thermal expansion coefficient, a (x10-7/degC)",Dissolution rate (8 days at 90degC) (g/cm2min)
,Na2O,ZnO,Al2O3,Fe2O3,P2O5,Glass density (g/cm3),"Glass transition temperature, T g (degC)","Glass softening temperature, T s (degC)","Thermal expansion coefficient, a (x10-7/degC)",Dissolution rate (8 days at 90degC) (g/cm2min)
NAP3,20,0,20,0,60,2.61,480,530,122,3.4x10-8
NAFP1,20,0,15,5,60,2.69,504,554,106,3.1x10-8
NAFP2,20,0,10,10,60,2.75,504,548,101,1.0x10-7
NAFP3,20,0,5,15,60,2.79,515,558,101,1.7x10-7
NFP3,20,0,0,20,60,2.84,484,536,108,3.5x10-7
ZAP1,0,15,17.5,0,67.5,2.68,629,687,70,6.4x10-8
ZAFP2,0,15,10,7.5,67.5,2.79,546,601,66,4.5x10-7
ZAFP1,0,15,5,12.5,67.5,2.81,474,520,70,2.1x10-7
ZFP1,0,15,0,17.5,67.5,3.39,478,532,69,1.6x10-8
ZFP2,0,15,0,25,60,3.14,470,515,64,3.4x10-9
ZAP2,0,15,25,0,60,2.63,659,714,67,1.1x10-8

File: S0022309304004958__0.csv
Composition (mol%),Composition (mol%),Composition (mol%),Melting conditions,Melting conditions,Density (g/cc),Young's modulus (GPa),e f (%) at 4000 mm/s,e f (%) at 50 mm/s,Strength (GPa)
Na2O,A12O3,SiO2,Temp (degC),Time (h),Density (g/cc),Young's modulus (GPa),e f (%) at 4000 mm/s,e f (%) at 50 mm/s,Strength (GPa)
25,0,75,1300,6:30,2.4299+-0.0007,56.18+-0.33,20.85+-0.12,21.99+-0.10,11.71
25,5,70,1300-1400,11:30,2.4504+-0.0015,60.28+-0.34,19.48+-0.08,19.90+-0.11,11.74
25,10,65,1300-1450,10:00,2.4663+-0.0014,63.64+-0.37,17.81+-0.09,17.94+-0.12,11.33
25,15,60,1500,15:00,2.4768+-0.0015,67.34+-0.33,15.87+-0.11,15.87+-0.10,10.69
25,20,55,1550,17:00,2.4853+-0.0008,69.47+-0.28,15.17+-0.08,15.18+-0.09,10.54
25,25,50,1600,19:00,2.4923+-0.0014,70.98+-0.33,14.74+-0.09,14.78+-0.11,10.46
25,30,45,1600,23:45,2.5152+-0.0010,74.91+-0.17,14.42+-0.11,14.22+-0.09,10.80
25,32.5,42.5,1600,12:00,2.5263+-0.0002,76.72+-0.15,13.71+-0.08,13.45+-0.06,10.52
25,35,40,1650,7:00,2.5386+-0.0009,78.51+-0.30,-,-,-

File: S0022309305007040__2.csv
Specimen,TiO2 addition (wt%),Density (g/cm3),Longitudinal modulus (GPa),Elastic modulus (GPa),Bulk modulus (GPa),Shear modulus (GPa)
Parent glass,No,2.520,85.79,79.23,40.93,33.64
Glass ceramic,No,2.606,89.23,72.12,51.23,30.88
As-prepared glass,1,2.528,93.07,75.92,52.92,30.11
Glass ceramic,1,2.619,85.78,76.43,43.55,31.67
As-prepared glass,2,2.537,89.95,74.16,50.57,29.54
Glass ceramic,2,2.629,83.99,69.89,46.73,27.95

File: S0022309309004803__0.csv
Sample ID,Sintering temperature (degC),Holding time (min),Relative density (%),Crystallite size (A),Hardness (HV),Fracture toughness (MPam1/2)
Sample A,475,5,92.76,-,-,-
Sample B,475,10,94.13,-,-,-
Sample C,550,20,98.96,99,1341,1.67+-0.3
Sample D,575,20,99.07,117,1230,1.58+-0.3

File: S0022309314006644__3.csv
Glass codes,Composition (mol%),Composition (mol%),Composition (mol%),Composition (mol%),O/P Ratio (+-0.01),r (gcm-3) (+-0.1),Vm (cm3 mol-1) (+-0.1),Hardness (Hv) (+-0.1)
Glass codes,P2O5,ZnO,Sm2O3,NiO,O/P Ratio (+-0.01),r (gcm-3) (+-0.1),Vm (cm3 mol-1) (+-0.1),Hardness (Hv) (+-0.1)
ZPSN0.0,59.0,40.0,1.0,0.0,2.86,2.8,42.2,173.2
ZPSN0.5,58.5,40.0,1.0,0.5,2.87,2.9,41.3,273.1
ZPSN1.0,58.0,40.0,1.0,1.0,2.88,2.9,41.4,364.8
ZPSN1.5,57.5,40.0,1.0,1.5,2.89,2.9,41.1,439.9
ZPSN2.0,56.0,40.0,1.0,2.0,2.90,3.0,40.6,465.1